<?xml version="1.0" encoding="UTF-8"?>

<Bundle xmlns="http://hl7.org/fhir">
    <meta>
        <profile value="https://fhir.cara.ch/StructureDefinition/ch-emed-epr-document-medicationtreatmentplan"/>
    </meta>
    <identifier>
        <system value="urn:ietf:rfc:3986"/>
        <value value="urn:uuid:24c84eef-f9db-4710-8f6c-2d342ad3ac2d"/>
    </identifier>
    <type value="document"/>
    <timestamp value="2023-04-11T12:00:00+02:00"/>
    <entry>
        <fullUrl value="urn:uuid:24c84eef-f9db-4710-8f6c-2d342ad3ac2e"/>
        <resource>
            <Composition>
                <meta>
                    <profile
                            value="https://fhir.cara.ch/StructureDefinition/ch-emed-epr-composition-medicationtreatmentplan"/>
                </meta>
                <language value="fr-CH"/>
                <identifier>
                    <system value="urn:ietf:rfc:3986"/>
                    <value value="urn:uuid:c9f758a1-296c-4710-84d4-e181db8c7478"/>
                </identifier>
                <status value="final"/>
                <type>
                    <coding>
                        <system value="http://loinc.org"/>
                        <code value="77603-9"/>
                        <display value="Medication treatment plan.extended Document"/>
                    </coding>
                    <coding>
                        <system value="http://snomed.info/sct"/>
                        <code value="419891008"/>
                        <display value="Record artifact (record artifact)"/>
                    </coding>
                </type>
                <subject>
                    <reference value="urn:uuid:2dbfe659-07d0-45c7-b8df-4a48372049a3"/>
                </subject>
                <date value="2023-04-11T12:00:00+02:00"/>
                <author>
                    <reference value="urn:uuid:213d609a-1164-459a-bb10-727516ae3d0c"/>
                </author>
                <title value="Décision thérapeutique relative à la médication"/>
                <confidentiality value="N">
                    <extension url="http://fhir.ch/ig/ch-core/StructureDefinition/ch-ext-epr-confidentialitycode">
                        <valueCodeableConcept>
                            <coding>
                                <system value="http://snomed.info/sct"/>
                                <code value="17621005"/>
                                <display value="Normal (qualifier value)"/>
                            </coding>
                        </valueCodeableConcept>
                    </extension>
                </confidentiality>
                <section>
                    <title value="Plan de traitement médicamenteux"/>
                    <code>
                        <coding>
                            <system value="http://loinc.org"/>
                            <code value="77604-7"/>
                            <display value="Medication treatment plan.brief Document"/>
                        </coding>
                    </code>
                    <text>
                        <status value="generated"/>
                        <div xmlns="http://www.w3.org/1999/xhtml">Le traitement #1</div>
                    </text>
                    <entry>
                        <reference value="urn:uuid:e1b5e341-d1a4-4a44-adad-7949974de994"/>
                    </entry>
                </section>
            </Composition>
        </resource>
    </entry>
    <entry>
        <fullUrl value="urn:uuid:2dbfe659-07d0-45c7-b8df-4a48372049a3"/>
        <resource>
            <Patient>
                <meta>
                    <profile value="https://fhir.cara.ch/StructureDefinition/ch-emed-epr-patient"/>
                </meta>
                <identifier>
                    <type>
                        <coding>
                            <system value="http://terminology.hl7.org/CodeSystem/v2-0203"/>
                            <code value="MR"/>
                        </coding>
                    </type>
                    <system value="urn:oid:2.999.1"/>
                    <value value="11111111"/>
                </identifier>
                <name>
                    <family value="Dupont"/>
                    <given value="Jeanne"/>
                </name>
                <gender value="female"/>
                <birthDate value="1972-08-07"/>
                <address>
                    <line value="Wiesenstr. 12"/>
                    <city value="Zürich"/>
                    <postalCode value="8003"/>
                    <country value="CH"/>
                </address>
            </Patient>
        </resource>
    </entry>
    <entry>
        <fullUrl value="urn:uuid:9fc8530b-b77d-4b53-8a21-fc786b697edf"/>
        <resource>
            <Practitioner>
                <meta>
                    <profile value="https://fhir.cara.ch/StructureDefinition/ch-emed-epr-practitioner"/>
                </meta>
                <identifier>
                    <system value="urn:oid:2.51.1.3"/>
                    <value value="7601000234438"/>
                </identifier>
                <name>
                    <family value="Cox"/>
                    <given value="Perry"/>
                </name>
            </Practitioner>
        </resource>
    </entry>
    <entry>
        <fullUrl value="urn:uuid:213d609a-1164-459a-bb10-727516ae3d0c"/>
        <resource>
            <PractitionerRole>
                <meta>
                    <profile value="https://fhir.cara.ch/StructureDefinition/ch-emed-epr-practitionerrole"/>
                </meta>
                <practitioner>
                    <reference value="urn:uuid:9fc8530b-b77d-4b53-8a21-fc786b697edf"/>
                </practitioner>
                <organization>
                    <reference value="urn:uuid:580fbe82-8734-4edf-ad4b-48124cdd03c6"/>
                </organization>
            </PractitionerRole>
        </resource>
    </entry>
    <entry>
        <fullUrl value="urn:uuid:580fbe82-8734-4edf-ad4b-48124cdd03c6"/>
        <resource>
            <Organization>
                <meta>
                    <profile value="https://fhir.cara.ch/StructureDefinition/ch-emed-epr-organization"/>
                </meta>
                <identifier>
                    <system value="urn:oid:2.51.1.3"/>
                    <value value="7601000234438"/>
                </identifier>
                <name value="Hôpitaux universitaires de Genève"/>
                <address>
                    <line value="Rue Gabrielle-Perret-Gentil 4"/>
                    <city value="Genève"/>
                    <postalCode value="1205"/>
                    <country value="CH"/>
                </address>
            </Organization>
        </resource>
    </entry>
    <entry>
        <fullUrl value="urn:uuid:e1b5e341-d1a4-4a44-adad-7949974de994"/>
        <resource>
            <MedicationStatement>
                <meta>
                    <profile
                            value="https://fhir.cara.ch/StructureDefinition/ch-emed-epr-medicationstatement-treatmentplan"/>
                </meta>
                <contained>
                    <Medication>
                        <id value="MedicationTriatec"/>
                        <meta>
                            <profile value="https://fhir.cara.ch/StructureDefinition/ch-emed-epr-medication"/>
                        </meta>
                        <code>
                            <coding>
                                <system value="urn:oid:2.51.1.1"/>
                                <code value="7680538751228"/>
                                <display value="TRIATEC Tabl 2.5 mg 20 Stk"/>
                            </coding>
                            <text value="TRIATEC Tabl 2.5 mg"/>
                        </code>
                        <form>
                            <coding>
                                <system value="urn:oid:0.4.0.127.0.16.1.1.2.1"/>
                                <code value="10219000"/>
                                <display value="Tablet"/>
                            </coding>
                            <text value="Tablet"/>
                        </form>
                    </Medication>
                </contained>
                <identifier>
                    <system value="urn:ietf:rfc:3986"/>
                    <value value="urn:uuid:41b97645-e263-47c2-8d96-79da451a33f2"/>
                </identifier>
                <status value="active"/>
                <medicationReference>
                    <reference value="#MedicationTriatec"/>
                </medicationReference>
                <subject>
                    <reference value="urn:uuid:2dbfe659-07d0-45c7-b8df-4a48372049a3"/>
                </subject>
                <dosage>
                    <patientInstruction value="À prendre avec de l'eau"/>
                </dosage>
            </MedicationStatement>
        </resource>
    </entry>
</Bundle>
